train.thisRepN,train.thisTrialN,train.thisN,train.thisIndex,Labjack_U3,cellIntensity,typeTrial,Unceartinty type,sector,position,soa,reactionTime,joyFinalPos,TargetFinalPosition,angleInRads,angleInDegrees,globalTime,gender,Session,dateStr,Subject,
0,0,0,0,0.35,0.4,U,N,0,1,1.0,0.75,"(0.0, 0.0)","(3.54, 3.54)",404,404,36.5313,male,1,2016_Jun_08_1512,2,
1,0,1,0,0.75,0.8,NU,N,0,3,1.5,0.75,"(0.0, 0.0)","(3.54, -3.54)",404,404,44.3508,male,1,2016_Jun_08_1512,2,
2,0,2,0,0.85,1.0,NU,H,0,2,1.9,0.75,"(0.0, 0.0)","(5, 0)",404,404,52.5981,male,1,2016_Jun_08_1512,2,
3,0,3,0,0.35,0.4,U,N,0,2,1.5,0.75,"(0.0, 0.0)","(5, 0)",404,404,60.435,male,1,2016_Jun_08_1512,2,
4,0,4,0,0.35,0.4,U,N,0,7,1.6,0.75,"(0.0, 0.0)","(-3.54, 3.54)",404,404,68.3679,male,1,2016_Jun_08_1512,2,
5,0,5,0,0.8,0.9,NU,M,E,0,1.5,0.75,"(0.0, 0.0)","(2.5, 4.33)",404,404,76.2017,male,1,2016_Jun_08_1512,2,
6,0,6,0,0.8,0.9,NU,M,S,1,1.7,0.75,"(0.0, 0.0)","(0, -5)",404,404,84.2351,male,1,2016_Jun_08_1512,2,
7,0,7,0,0.35,0.4,U,N,0,5,1.7,0.75,"(0.0, 0.0)","(-3.54, -3.54)",404,404,92.2552,male,1,2016_Jun_08_1512,2,
8,0,8,0,0.8,0.9,NU,M,E,1,1.7,0.75,"(0.0, 0.0)","(5, 0)",404,404,100.2805,male,1,2016_Jun_08_1512,2,
9,0,9,0,0.4,0.5,U,M,W,0,1.9,0.75,"(0.0, 0.0)","(-2.5, -4.33)",404,404,108.5117,male,1,2016_Jun_08_1512,2,
10,0,10,0,0.8,0.9,NU,M,N,0,1.0,0.75,"(0.0, 0.0)","(-4.33, 2.5)",404,404,115.8473,male,1,2016_Jun_08_1512,2,
11,0,11,0,0.45,0.6,U,H,0,4,1.3,0.75,"(0.0, 0.0)","(0, -5)",404,404,123.4839,male,1,2016_Jun_08_1512,2,
12,0,12,0,0.85,1.0,NU,H,0,4,1.6,0.75,"(0.0, 0.0)","(0, -5)",404,404,131.4267,male,1,2016_Jun_08_1512,2,
13,0,13,0,0.8,0.9,NU,M,W,0,1.5,0.75,"(0.0, 0.0)","(-2.5, -4.33)",404,404,139.248,male,1,2016_Jun_08_1512,2,
14,0,14,0,0.35,0.4,U,N,0,6,1.6,0.75,"(0.0, 0.0)","(-5, 0)",404,404,147.1793,male,1,2016_Jun_08_1512,2,
15,0,15,0,0.85,1.0,NU,H,0,3,1.8,0.75,"(0.0, 0.0)","(3.54, -3.54)",404,404,155.3425,male,1,2016_Jun_08_1512,2,
16,0,16,0,0.35,0.4,U,N,0,5,1.1,0.75,"(0.0, 0.0)","(-3.54, -3.54)",404,404,162.7652,male,1,2016_Jun_08_1512,2,
17,0,17,0,0.35,0.4,U,N,0,7,1.7,0.75,"(0.0, 0.0)","(-3.54, 3.54)",404,404,170.7967,male,1,2016_Jun_08_1512,2,
18,0,18,0,0.75,0.8,NU,N,0,4,1.2,0.75,"(0.0, 0.0)","(0, -5)",404,404,178.3626,male,1,2016_Jun_08_1512,2,
19,0,19,0,0.45,0.6,U,H,0,0,1.9,0.75,"(0.0, 0.0)","(0, 5)",404,404,186.6106,male,1,2016_Jun_08_1512,2,
20,0,20,0,0.8,0.9,NU,M,N,1,1.1,0.75,"(0.0, 0.0)","(0, 5)",404,404,194.0612,male,1,2016_Jun_08_1512,2,
21,0,21,0,0.35,0.4,U,N,0,6,1.1,0.75,"(0.0, 0.0)","(-5, 0)",404,404,201.4859,male,1,2016_Jun_08_1512,2,
22,0,22,0,0.85,1.0,NU,H,0,1,1.5,0.75,"(0.0, 0.0)","(3.54, 3.54)",404,404,209.3545,male,1,2016_Jun_08_1512,2,
23,0,23,0,0.85,1.0,NU,H,0,0,1.2,0.75,"(0.0, 0.0)","(0, 5)",404,404,216.8934,male,1,2016_Jun_08_1512,2,
24,0,24,0,0.45,0.6,U,H,0,2,1.9,0.75,"(0.0, 0.0)","(5, 0)",404,404,225.1115,male,1,2016_Jun_08_1512,2,
25,0,25,0,0.45,0.6,U,H,0,0,1.6,0.75,"(0.0, 0.0)","(0, 5)",404,404,233.0539,male,1,2016_Jun_08_1512,2,
26,0,26,0,0.85,1.0,NU,H,0,1,1.9,0.75,"(0.0, 0.0)","(3.54, 3.54)",404,404,241.2998,male,1,2016_Jun_08_1512,2,
27,0,27,0,0.4,0.5,U,M,E,2,1.5,0.75,"(0.0, 0.0)","(2.5, -4.33)",404,404,249.1289,male,1,2016_Jun_08_1512,2,
28,0,28,0,0.85,1.0,NU,H,0,6,1.7,0.75,"(0.0, 0.0)","(-5, 0)",404,404,257.1619,male,1,2016_Jun_08_1512,2,
29,0,29,0,0.45,0.6,U,H,0,2,1.5,0.75,"(0.0, 0.0)","(5, 0)",404,404,265.0073,male,1,2016_Jun_08_1512,2,
30,0,30,0,0.85,1.0,NU,H,0,5,1.8,0.75,"(0.0, 0.0)","(-3.54, -3.54)",404,404,273.1372,male,1,2016_Jun_08_1512,2,
31,0,31,0,0.35,0.4,U,N,0,2,1.8,0.75,"(0.0, 0.0)","(5, 0)",404,404,281.2878,male,1,2016_Jun_08_1512,2,
32,0,32,0,0.8,0.9,NU,M,S,0,1.7,0.75,"(0.0, 0.0)","(-4.33, -2.5)",404,404,289.3345,male,1,2016_Jun_08_1512,2,
33,0,33,0,0.35,0.4,U,N,0,4,1.2,0.75,"(0.0, 0.0)","(0, -5)",404,404,296.8551,male,1,2016_Jun_08_1512,2,
34,0,34,0,0.8,0.9,NU,M,N,1,2.0,0.75,"(0.0, 0.0)","(0, 5)",404,404,305.1819,male,1,2016_Jun_08_1512,2,
35,0,35,0,0.75,0.8,NU,N,0,1,1.3,0.75,"(0.0, 0.0)","(3.54, 3.54)",404,404,312.8181,male,1,2016_Jun_08_1512,2,
36,0,36,0,0.45,0.6,U,H,0,3,1.6,0.75,"(0.0, 0.0)","(3.54, -3.54)",404,404,320.7502,male,1,2016_Jun_08_1512,2,
37,0,37,0,0.4,0.5,U,M,S,2,2.0,0.75,"(0.0, 0.0)","(4.33, -2.5)",404,404,329.088,male,1,2016_Jun_08_1512,2,
38,0,38,0,0.8,0.9,NU,M,S,2,1.4,0.75,"(0.0, 0.0)","(4.33, -2.5)",404,404,336.8175,male,1,2016_Jun_08_1512,2,
39,0,39,0,0.85,1.0,NU,H,0,6,1.7,0.75,"(0.0, 0.0)","(-5, 0)",404,404,344.8461,male,1,2016_Jun_08_1512,2,
40,0,40,0,0.35,0.4,U,N,0,3,1.1,0.75,"(0.0, 0.0)","(3.54, -3.54)",404,404,352.2751,male,1,2016_Jun_08_1512,2,
41,0,41,0,0.75,0.8,NU,N,0,1,1.0,0.75,"(0.0, 0.0)","(3.54, 3.54)",404,404,359.6238,male,1,2016_Jun_08_1512,2,
42,0,42,0,0.4,0.5,U,M,W,1,1.7,0.75,"(0.0, 0.0)","(-5, 0)",404,404,367.6765,male,1,2016_Jun_08_1512,2,
43,0,43,0,0.45,0.6,U,H,0,1,1.7,0.75,"(0.0, 0.0)","(3.54, 3.54)",404,404,375.7188,male,1,2016_Jun_08_1512,2,
44,0,44,0,0.75,0.8,NU,N,0,6,1.9,0.75,"(0.0, 0.0)","(-5, 0)",404,404,383.9582,male,1,2016_Jun_08_1512,2,
45,0,45,0,0.4,0.5,U,M,S,1,1.4,0.75,"(0.0, 0.0)","(0, -5)",404,404,391.6667,male,1,2016_Jun_08_1512,2,
46,0,46,0,0.35,0.4,U,N,0,7,1.2,0.75,"(0.0, 0.0)","(-3.54, 3.54)",404,404,399.1868,male,1,2016_Jun_08_1512,2,
47,0,47,0,0.75,0.8,NU,N,0,0,1.6,0.75,"(0.0, 0.0)","(0, 5)",404,404,407.1231,male,1,2016_Jun_08_1512,2,
48,0,48,0,0.8,0.9,NU,M,W,1,1.7,0.75,"(0.0, 0.0)","(-5, 0)",404,404,415.1748,male,1,2016_Jun_08_1512,2,
49,0,49,0,0.4,0.5,U,M,E,2,1.9,0.75,"(0.0, 0.0)","(2.5, -4.33)",404,404,423.4106,male,1,2016_Jun_08_1512,2,
50,0,50,0,0.75,0.8,NU,N,0,5,1.8,0.75,"(0.0, 0.0)","(-3.54, -3.54)",404,404,431.522,male,1,2016_Jun_08_1512,2,
51,0,51,0,0.8,0.9,NU,M,E,1,1.8,0.75,"(0.0, 0.0)","(5, 0)",404,404,439.6465,male,1,2016_Jun_08_1512,2,
52,0,52,0,0.4,0.5,U,M,N,2,1.5,0.75,"(0.0, 0.0)","(4.33, 2.5)",404,404,447.4598,male,1,2016_Jun_08_1512,2,
53,0,53,0,0.35,0.4,U,N,0,3,1.3,0.75,"(0.0, 0.0)","(3.54, -3.54)",404,404,455.0983,male,1,2016_Jun_08_1512,2,
54,0,54,0,0.85,1.0,NU,H,0,6,1.1,0.75,"(0.0, 0.0)","(-5, 0)",404,404,462.5457,male,1,2016_Jun_08_1512,2,
55,0,55,0,0.35,0.4,U,N,0,0,1.9,0.75,"(0.0, 0.0)","(0, 5)",404,404,470.7938,male,1,2016_Jun_08_1512,2,
56,0,56,0,0.85,1.0,NU,H,0,3,1.1,0.75,"(0.0, 0.0)","(3.54, -3.54)",404,404,478.2338,male,1,2016_Jun_08_1512,2,
57,0,57,0,0.8,0.9,NU,M,S,0,1.6,0.75,"(0.0, 0.0)","(-4.33, -2.5)",404,404,486.1601,male,1,2016_Jun_08_1512,2,
58,0,58,0,0.45,0.6,U,H,0,5,1.4,0.75,"(0.0, 0.0)","(-3.54, -3.54)",404,404,493.8852,male,1,2016_Jun_08_1512,2,
59,0,59,0,0.35,0.4,U,N,0,4,1.7,0.75,"(0.0, 0.0)","(0, -5)",404,404,501.9268,male,1,2016_Jun_08_1512,2,
60,0,60,0,0.8,0.9,NU,M,W,2,1.1,0.75,"(0.0, 0.0)","(-2.5, 4.33)",404,404,509.3589,male,1,2016_Jun_08_1512,2,
61,0,61,0,0.4,0.5,U,M,E,0,1.9,0.75,"(0.0, 0.0)","(2.5, 4.33)",404,404,517.5921,male,1,2016_Jun_08_1512,2,
62,0,62,0,0.45,0.6,U,H,0,7,1.9,0.75,"(0.0, 0.0)","(-3.54, 3.54)",404,404,525.8249,male,1,2016_Jun_08_1512,2,
63,0,63,0,0.75,0.8,NU,N,0,0,1.9,0.75,"(0.0, 0.0)","(0, 5)",404,404,534.071,male,1,2016_Jun_08_1512,2,
64,0,64,0,0.45,0.6,U,H,0,7,1.3,0.75,"(0.0, 0.0)","(-3.54, 3.54)",404,404,541.7244,male,1,2016_Jun_08_1512,2,
65,0,65,0,0.8,0.9,NU,M,N,2,1.4,0.75,"(0.0, 0.0)","(4.33, 2.5)",404,404,549.4613,male,1,2016_Jun_08_1512,2,
66,0,66,0,0.45,0.6,U,H,0,5,2.0,0.75,"(0.0, 0.0)","(-3.54, -3.54)",404,404,557.8251,male,1,2016_Jun_08_1512,2,
67,0,67,0,0.4,0.5,U,M,N,0,1.1,0.75,"(0.0, 0.0)","(-4.33, 2.5)",404,404,565.2579,male,1,2016_Jun_08_1512,2,
68,0,68,0,0.85,1.0,NU,H,0,4,1.7,0.75,"(0.0, 0.0)","(0, -5)",404,404,573.2958,male,1,2016_Jun_08_1512,2,
69,0,69,0,0.85,1.0,NU,H,0,7,1.3,0.75,"(0.0, 0.0)","(-3.54, 3.54)",404,404,580.9212,male,1,2016_Jun_08_1512,2,
70,0,70,0,0.4,0.5,U,M,W,2,1.6,0.75,"(0.0, 0.0)","(-2.5, 4.33)",404,404,588.8813,male,1,2016_Jun_08_1512,2,
71,0,71,0,0.35,0.4,U,N,0,2,1.9,0.75,"(0.0, 0.0)","(5, 0)",404,404,597.1245,male,1,2016_Jun_08_1512,2,
72,0,72,0,0.8,0.9,NU,M,E,0,1.3,0.75,"(0.0, 0.0)","(2.5, 4.33)",404,404,1550.7301,male,1,2016_Jun_08_1512,2,
73,0,73,0,0.75,0.8,NU,N,0,3,1.9,0.75,"(0.0, 0.0)","(3.54, -3.54)",404,404,1558.9648,male,1,2016_Jun_08_1512,2,
74,0,74,0,0.4,0.5,U,M,N,1,1.5,0.75,"(0.0, 0.0)","(0, 5)",404,404,1566.8044,male,1,2016_Jun_08_1512,2,
75,0,75,0,0.85,1.0,NU,H,0,4,1.9,0.75,"(0.0, 0.0)","(0, -5)",404,404,1575.0353,male,1,2016_Jun_08_1512,2,
76,0,76,0,0.35,0.4,U,N,0,7,1.9,0.75,"(0.0, 0.0)","(-3.54, 3.54)",404,404,1583.2745,male,1,2016_Jun_08_1512,2,
77,0,77,0,0.35,0.4,U,N,0,7,1.4,0.75,"(0.0, 0.0)","(-3.54, 3.54)",404,404,1590.997,male,1,2016_Jun_08_1512,2,
78,0,78,0,0.75,0.8,NU,N,0,4,1.9,0.75,"(0.0, 0.0)","(0, -5)",404,404,1599.2384,male,1,2016_Jun_08_1512,2,
79,0,79,0,0.45,0.6,U,H,0,7,1.6,0.75,"(0.0, 0.0)","(-3.54, 3.54)",404,404,1607.1687,male,1,2016_Jun_08_1512,2,
80,0,80,0,0.35,0.4,U,N,0,3,1.8,0.75,"(0.0, 0.0)","(3.54, -3.54)",404,404,1615.2875,male,1,2016_Jun_08_1512,2,
81,0,81,0,0.75,0.8,NU,N,0,1,1.7,0.75,"(0.0, 0.0)","(3.54, 3.54)",404,404,1623.3124,male,1,2016_Jun_08_1512,2,
82,0,82,0,0.8,0.9,NU,M,E,1,1.6,0.75,"(0.0, 0.0)","(5, 0)",404,404,1631.2577,male,1,2016_Jun_08_1512,2,
83,0,83,0,0.4,0.5,U,M,N,0,1.1,0.75,"(0.0, 0.0)","(-4.33, 2.5)",404,404,1638.6986,male,1,2016_Jun_08_1512,2,
84,0,84,0,0.85,1.0,NU,H,0,4,1.1,0.75,"(0.0, 0.0)","(0, -5)",404,404,1646.1237,male,1,2016_Jun_08_1512,2,
85,0,85,0,0.85,1.0,NU,H,0,1,1.6,0.75,"(0.0, 0.0)","(3.54, 3.54)",404,404,1654.0354,male,1,2016_Jun_08_1512,2,
86,0,86,0,0.45,0.6,U,H,0,1,1.4,0.75,"(0.0, 0.0)","(3.54, 3.54)",404,404,1661.7687,male,1,2016_Jun_08_1512,2,
87,0,87,0,0.85,1.0,NU,H,0,3,1.9,0.75,"(0.0, 0.0)","(3.54, -3.54)",404,404,1670.0024,male,1,2016_Jun_08_1512,2,
88,0,88,0,0.45,0.6,U,H,0,7,1.0,0.75,"(0.0, 0.0)","(-3.54, 3.54)",404,404,1677.3498,male,1,2016_Jun_08_1512,2,
89,0,89,0,0.75,0.8,NU,N,0,4,1.7,0.75,"(0.0, 0.0)","(0, -5)",404,404,1685.3913,male,1,2016_Jun_08_1512,2,
90,0,90,0,0.85,1.0,NU,H,0,6,1.6,0.75,"(0.0, 0.0)","(-5, 0)",404,404,1693.3316,male,1,2016_Jun_08_1512,2,
91,0,91,0,0.4,0.5,U,M,N,1,1.7,0.75,"(0.0, 0.0)","(0, 5)",404,404,1701.3731,male,1,2016_Jun_08_1512,2,
92,0,92,0,0.75,0.8,NU,N,0,7,1.8,0.75,"(0.0, 0.0)","(-3.54, 3.54)",404,404,1709.5242,male,1,2016_Jun_08_1512,2,
93,0,93,0,0.8,0.9,NU,M,W,0,2.0,0.75,"(0.0, 0.0)","(-2.5, -4.33)",404,404,1717.8348,male,1,2016_Jun_08_1512,2,
94,0,94,0,0.4,0.5,U,M,N,0,1.9,0.75,"(0.0, 0.0)","(-4.33, 2.5)",404,404,1726.0848,male,1,2016_Jun_08_1512,2,
95,0,95,0,0.85,1.0,NU,H,0,7,1.1,0.75,"(0.0, 0.0)","(-3.54, 3.54)",404,404,1733.5166,male,1,2016_Jun_08_1512,2,
96,0,96,0,0.8,0.9,NU,M,W,1,2.0,0.75,"(0.0, 0.0)","(-5, 0)",404,404,1741.8538,male,1,2016_Jun_08_1512,2,
97,0,97,0,0.45,0.6,U,H,0,5,2.0,0.75,"(0.0, 0.0)","(-3.54, -3.54)",404,404,1750.1896,male,1,2016_Jun_08_1512,2,
98,0,98,0,0.85,1.0,NU,H,0,2,1.4,0.75,"(0.0, 0.0)","(5, 0)",404,404,1757.9187,male,1,2016_Jun_08_1512,2,
99,0,99,0,0.85,1.0,NU,H,0,3,1.6,0.75,"(0.0, 0.0)","(3.54, -3.54)",404,404,1765.8525,male,1,2016_Jun_08_1512,2,
100,0,100,0,0.35,0.4,U,N,0,5,1.3,0.75,"(0.0, 0.0)","(-3.54, -3.54)",404,404,1773.4766,male,1,2016_Jun_08_1512,2,
101,0,101,0,0.85,1.0,NU,H,0,0,1.7,0.75,"(0.0, 0.0)","(0, 5)",404,404,1781.5369,male,1,2016_Jun_08_1512,2,
102,0,102,0,0.4,0.5,U,M,E,2,1.5,0.75,"(0.0, 0.0)","(2.5, -4.33)",404,404,1789.3903,male,1,2016_Jun_08_1512,2,
103,0,103,0,0.8,0.9,NU,M,E,2,1.8,0.75,"(0.0, 0.0)","(2.5, -4.33)",404,404,1797.5144,male,1,2016_Jun_08_1512,2,
104,0,104,0,0.75,0.8,NU,N,0,6,1.6,0.75,"(0.0, 0.0)","(-5, 0)",404,404,1805.4502,male,1,2016_Jun_08_1512,2,
105,0,105,0,0.35,0.4,U,N,0,5,1.9,0.75,"(0.0, 0.0)","(-3.54, -3.54)",404,404,1813.6985,male,1,2016_Jun_08_1512,2,
106,0,106,0,0.75,0.8,NU,N,0,1,1.3,0.75,"(0.0, 0.0)","(3.54, 3.54)",404,404,1821.3328,male,1,2016_Jun_08_1512,2,
107,0,107,0,0.35,0.4,U,N,0,2,1.5,0.75,"(0.0, 0.0)","(5, 0)",404,404,1829.1548,male,1,2016_Jun_08_1512,2,
108,0,108,0,0.45,0.6,U,H,0,2,1.2,0.75,"(0.0, 0.0)","(5, 0)",404,404,1836.696,male,1,2016_Jun_08_1512,2,
109,0,109,0,0.75,0.8,NU,N,0,0,1.4,0.75,"(0.0, 0.0)","(0, 5)",404,404,1844.4393,male,1,2016_Jun_08_1512,2,
110,0,110,0,0.35,0.4,U,N,0,6,1.9,0.75,"(0.0, 0.0)","(-5, 0)",404,404,1852.6528,male,1,2016_Jun_08_1512,2,
111,0,111,0,0.85,1.0,NU,H,0,5,1.9,0.75,"(0.0, 0.0)","(-3.54, -3.54)",404,404,1860.9013,male,1,2016_Jun_08_1512,2,
112,0,112,0,0.75,0.8,NU,N,0,2,1.7,0.75,"(0.0, 0.0)","(5, 0)",404,404,1868.9454,male,1,2016_Jun_08_1512,2,
113,0,113,0,0.35,0.4,U,N,0,1,1.3,0.75,"(0.0, 0.0)","(3.54, 3.54)",404,404,1876.5673,male,1,2016_Jun_08_1512,2,
114,0,114,0,0.4,0.5,U,M,S,0,1.1,0.75,"(0.0, 0.0)","(-4.33, -2.5)",404,404,1884.0146,male,1,2016_Jun_08_1512,2,
115,0,115,0,0.75,0.8,NU,N,0,6,1.4,0.75,"(0.0, 0.0)","(-5, 0)",404,404,1891.7395,male,1,2016_Jun_08_1512,2,
116,0,116,0,0.75,0.8,NU,N,0,2,1.5,0.75,"(0.0, 0.0)","(5, 0)",404,404,1899.5798,male,1,2016_Jun_08_1512,2,
117,0,117,0,0.45,0.6,U,H,0,6,2.0,0.75,"(0.0, 0.0)","(-5, 0)",404,404,1907.9174,male,1,2016_Jun_08_1512,2,
118,0,118,0,0.8,0.9,NU,M,S,0,1.0,0.75,"(0.0, 0.0)","(-4.33, -2.5)",404,404,1915.256,male,1,2016_Jun_08_1512,2,
119,0,119,0,0.45,0.6,U,H,0,0,1.1,0.75,"(0.0, 0.0)","(0, 5)",404,404,1922.6848,male,1,2016_Jun_08_1512,2,
120,0,120,0,0.45,0.6,U,H,0,5,1.4,0.75,"(0.0, 0.0)","(-3.54, -3.54)",404,404,1930.4073,male,1,2016_Jun_08_1512,2,
121,0,121,0,0.85,1.0,NU,H,0,0,1.8,0.75,"(0.0, 0.0)","(0, 5)",404,404,1938.5441,male,1,2016_Jun_08_1512,2,
122,0,122,0,0.8,0.9,NU,M,W,2,1.8,0.75,"(0.0, 0.0)","(-2.5, 4.33)",404,404,1946.7012,male,1,2016_Jun_08_1512,2,
123,0,123,0,0.35,0.4,U,N,0,0,1.4,0.75,"(0.0, 0.0)","(0, 5)",404,404,1954.434,male,1,2016_Jun_08_1512,2,
124,0,124,0,0.75,0.8,NU,N,0,4,1.8,0.75,"(0.0, 0.0)","(0, -5)",404,404,1962.5607,male,1,2016_Jun_08_1512,2,
125,0,125,0,0.4,0.5,U,M,W,2,1.1,0.75,"(0.0, 0.0)","(-2.5, 4.33)",404,404,1969.9979,male,1,2016_Jun_08_1512,2,
126,0,126,0,0.35,0.4,U,N,0,3,2.0,0.75,"(0.0, 0.0)","(3.54, -3.54)",404,404,1978.3343,male,1,2016_Jun_08_1512,2,
127,0,127,0,0.85,1.0,NU,H,0,4,1.3,0.75,"(0.0, 0.0)","(0, -5)",404,404,1985.9828,male,1,2016_Jun_08_1512,2,
128,0,128,0,0.35,0.4,U,N,0,5,1.8,0.75,"(0.0, 0.0)","(-3.54, -3.54)",404,404,1994.1319,male,1,2016_Jun_08_1512,2,
129,0,129,0,0.4,0.5,U,M,N,2,1.8,0.75,"(0.0, 0.0)","(4.33, 2.5)",404,404,2002.2644,male,1,2016_Jun_08_1512,2,
130,0,130,0,0.8,0.9,NU,M,E,1,1.6,0.75,"(0.0, 0.0)","(5, 0)",404,404,2010.1969,male,1,2016_Jun_08_1512,2,
131,0,131,0,0.4,0.5,U,M,N,2,1.5,0.75,"(0.0, 0.0)","(4.33, 2.5)",404,404,2018.0318,male,1,2016_Jun_08_1512,2,
132,0,132,0,0.8,0.9,NU,M,E,0,1.9,0.75,"(0.0, 0.0)","(2.5, 4.33)",404,404,2026.2792,male,1,2016_Jun_08_1512,2,
133,0,133,0,0.85,1.0,NU,H,0,3,1.6,0.75,"(0.0, 0.0)","(3.54, -3.54)",404,404,2034.2397,male,1,2016_Jun_08_1512,2,
134,0,134,0,0.45,0.6,U,H,0,6,1.3,0.75,"(0.0, 0.0)","(-5, 0)",404,404,2041.8865,male,1,2016_Jun_08_1512,2,
135,0,135,0,0.4,0.5,U,M,S,1,1.4,0.75,"(0.0, 0.0)","(0, -5)",404,404,2049.6357,male,1,2016_Jun_08_1512,2,
136,0,136,0,0.8,0.9,NU,M,S,2,1.8,0.75,"(0.0, 0.0)","(4.33, -2.5)",404,404,2057.7819,male,1,2016_Jun_08_1512,2,
137,0,137,0,0.4,0.5,U,M,W,0,1.9,0.75,"(0.0, 0.0)","(-2.5, -4.33)",404,404,2066.0346,male,1,2016_Jun_08_1512,2,
138,0,138,0,0.4,0.5,U,M,S,1,1.5,0.75,"(0.0, 0.0)","(0, -5)",404,404,2073.8732,male,1,2016_Jun_08_1512,2,
139,0,139,0,0.75,0.8,NU,N,0,0,1.1,0.75,"(0.0, 0.0)","(0, 5)",404,404,2081.3109,male,1,2016_Jun_08_1512,2,
140,0,140,0,0.4,0.5,U,M,S,2,1.7,0.75,"(0.0, 0.0)","(4.33, -2.5)",404,404,2089.3318,male,1,2016_Jun_08_1512,2,
141,0,141,0,0.45,0.6,U,H,0,1,1.8,0.75,"(0.0, 0.0)","(3.54, 3.54)",404,404,2097.4625,male,1,2016_Jun_08_1512,2,
142,0,142,0,0.85,1.0,NU,H,0,2,1.8,0.75,"(0.0, 0.0)","(5, 0)",404,404,2105.5847,male,1,2016_Jun_08_1512,2,
143,0,143,0,0.4,0.5,U,M,W,1,1.8,0.75,"(0.0, 0.0)","(-5, 0)",404,404,2113.7049,male,1,2016_Jun_08_1512,2,
144,0,144,0,0.85,1.0,NU,H,0,5,1.4,0.75,"(0.0, 0.0)","(-3.54, -3.54)",404,404,2153.1745,male,1,2016_Jun_08_1512,2,
145,0,145,0,0.8,0.9,NU,M,S,0,1.6,0.75,"(0.0, 0.0)","(-4.33, -2.5)",404,404,2161.1225,male,1,2016_Jun_08_1512,2,
146,0,146,0,0.35,0.4,U,N,0,7,1.1,0.75,"(0.0, 0.0)","(-3.54, 3.54)",404,404,2168.5628,male,1,2016_Jun_08_1512,2,
147,0,147,0,0.4,0.5,U,M,W,1,1.1,0.75,"(0.0, 0.0)","(-5, 0)",404,404,2175.9907,male,1,2016_Jun_08_1512,2,
148,0,148,0,0.85,1.0,NU,H,0,3,1.1,0.75,"(0.0, 0.0)","(3.54, -3.54)",404,404,2183.4196,male,1,2016_Jun_08_1512,2,
149,0,149,0,0.75,0.8,NU,N,0,0,1.6,0.75,"(0.0, 0.0)","(0, 5)",404,404,2191.3614,male,1,2016_Jun_08_1512,2,
150,0,150,0,0.4,0.5,U,M,S,0,1.5,0.75,"(0.0, 0.0)","(-4.33, -2.5)",404,404,2199.2065,male,1,2016_Jun_08_1512,2,
151,0,151,0,0.35,0.4,U,N,0,6,1.1,0.75,"(0.0, 0.0)","(-5, 0)",404,404,2206.669,male,1,2016_Jun_08_1512,2,
152,0,152,0,0.75,0.8,NU,N,0,3,1.9,0.75,"(0.0, 0.0)","(3.54, -3.54)",404,404,2214.8901,male,1,2016_Jun_08_1512,2,
153,0,153,0,0.35,0.4,U,N,0,5,1.5,0.75,"(0.0, 0.0)","(-3.54, -3.54)",404,404,2222.7265,male,1,2016_Jun_08_1512,2,
154,0,154,0,0.4,0.5,U,M,W,1,1.1,0.75,"(0.0, 0.0)","(-5, 0)",404,404,2230.1555,male,1,2016_Jun_08_1512,2,
155,0,155,0,0.75,0.8,NU,N,0,7,1.2,0.75,"(0.0, 0.0)","(-3.54, 3.54)",404,404,2237.6883,male,1,2016_Jun_08_1512,2,
156,0,156,0,0.35,0.4,U,N,0,1,1.5,0.75,"(0.0, 0.0)","(3.54, 3.54)",404,404,2245.5356,male,1,2016_Jun_08_1512,2,
157,0,157,0,0.85,1.0,NU,H,0,6,1.5,0.75,"(0.0, 0.0)","(-5, 0)",404,404,2253.3763,male,1,2016_Jun_08_1512,2,
158,0,158,0,0.45,0.6,U,H,0,3,1.9,0.75,"(0.0, 0.0)","(3.54, -3.54)",404,404,2261.6034,male,1,2016_Jun_08_1512,2,
159,0,159,0,0.4,0.5,U,M,N,0,1.4,0.75,"(0.0, 0.0)","(-4.33, 2.5)",404,404,2269.3429,male,1,2016_Jun_08_1512,2,
160,0,160,0,0.8,0.9,NU,M,E,0,1.3,0.75,"(0.0, 0.0)","(2.5, 4.33)",404,404,2276.9662,male,1,2016_Jun_08_1512,2,
161,0,161,0,0.8,0.9,NU,M,E,1,1.3,0.75,"(0.0, 0.0)","(5, 0)",404,404,2284.6014,male,1,2016_Jun_08_1512,2,
162,0,162,0,0.35,0.4,U,N,0,1,1.9,0.75,"(0.0, 0.0)","(3.54, 3.54)",404,404,2292.8367,male,1,2016_Jun_08_1512,2,
163,0,163,0,0.4,0.5,U,M,N,2,1.7,0.75,"(0.0, 0.0)","(4.33, 2.5)",404,404,2300.8528,male,1,2016_Jun_08_1512,2,
164,0,164,0,0.75,0.8,NU,N,0,0,1.7,0.75,"(0.0, 0.0)","(0, 5)",404,404,2308.8856,male,1,2016_Jun_08_1512,2,
165,0,165,0,0.45,0.6,U,H,0,7,1.4,0.75,"(0.0, 0.0)","(-3.54, 3.54)",404,404,2316.6155,male,1,2016_Jun_08_1512,2,
166,0,166,0,0.4,0.5,U,M,E,0,1.3,0.75,"(0.0, 0.0)","(2.5, 4.33)",404,404,2324.2412,male,1,2016_Jun_08_1512,2,
167,0,167,0,0.85,1.0,NU,H,0,5,1.6,0.75,"(0.0, 0.0)","(-3.54, -3.54)",404,404,2332.1704,male,1,2016_Jun_08_1512,2,
168,0,168,0,0.4,0.5,U,M,S,1,1.6,0.75,"(0.0, 0.0)","(0, -5)",404,404,2340.1221,male,1,2016_Jun_08_1512,2,
169,0,169,0,0.75,0.8,NU,N,0,4,1.9,0.75,"(0.0, 0.0)","(0, -5)",404,404,2348.3473,male,1,2016_Jun_08_1512,2,
170,0,170,0,0.8,0.9,NU,M,S,2,1.2,0.75,"(0.0, 0.0)","(4.33, -2.5)",404,404,2355.8761,male,1,2016_Jun_08_1512,2,
171,0,171,0,0.4,0.5,U,M,S,1,1.8,0.75,"(0.0, 0.0)","(0, -5)",404,404,2364.0085,male,1,2016_Jun_08_1512,2,
172,0,172,0,0.4,0.5,U,M,N,1,1.4,0.75,"(0.0, 0.0)","(0, 5)",404,404,2371.7197,male,1,2016_Jun_08_1512,2,
173,0,173,0,0.85,1.0,NU,H,0,1,1.3,0.75,"(0.0, 0.0)","(3.54, 3.54)",404,404,2379.3489,male,1,2016_Jun_08_1512,2,
174,0,174,0,0.35,0.4,U,N,0,4,1.6,0.75,"(0.0, 0.0)","(0, -5)",404,404,2387.2933,male,1,2016_Jun_08_1512,2,
175,0,175,0,0.45,0.6,U,H,0,2,1.7,0.75,"(0.0, 0.0)","(5, 0)",404,404,2395.333,male,1,2016_Jun_08_1512,2,
176,0,176,0,0.85,1.0,NU,H,0,7,1.5,0.75,"(0.0, 0.0)","(-3.54, 3.54)",404,404,2403.1783,male,1,2016_Jun_08_1512,2,
177,0,177,0,0.4,0.5,U,M,N,1,1.0,0.75,"(0.0, 0.0)","(0, 5)",404,404,2410.5216,male,1,2016_Jun_08_1512,2,
178,0,178,0,0.85,1.0,NU,H,0,1,1.1,0.75,"(0.0, 0.0)","(3.54, 3.54)",404,404,2417.9598,male,1,2016_Jun_08_1512,2,
179,0,179,0,0.45,0.6,U,H,0,0,1.9,0.75,"(0.0, 0.0)","(0, 5)",404,404,2426.1821,male,1,2016_Jun_08_1512,2,
180,0,180,0,0.4,0.5,U,M,S,2,1.3,0.75,"(0.0, 0.0)","(4.33, -2.5)",404,404,2433.8108,male,1,2016_Jun_08_1512,2,
181,0,181,0,0.75,0.8,NU,N,0,1,1.2,0.75,"(0.0, 0.0)","(3.54, 3.54)",404,404,2441.3489,male,1,2016_Jun_08_1512,2,
182,0,182,0,0.75,0.8,NU,N,0,3,2.0,0.75,"(0.0, 0.0)","(3.54, -3.54)",404,404,2449.6662,male,1,2016_Jun_08_1512,2,
183,0,183,0,0.45,0.6,U,H,0,0,1.0,0.75,"(0.0, 0.0)","(0, 5)",404,404,2456.9997,male,1,2016_Jun_08_1512,2,
184,0,184,0,0.85,1.0,NU,H,0,3,1.5,0.75,"(0.0, 0.0)","(3.54, -3.54)",404,404,2464.853,male,1,2016_Jun_08_1512,2,
185,0,185,0,0.85,1.0,NU,H,0,5,1.8,0.75,"(0.0, 0.0)","(-3.54, -3.54)",404,404,2472.9778,male,1,2016_Jun_08_1512,2,
186,0,186,0,0.4,0.5,U,M,W,2,1.1,0.75,"(0.0, 0.0)","(-2.5, 4.33)",404,404,2480.4307,male,1,2016_Jun_08_1512,2,
187,0,187,0,0.45,0.6,U,H,0,4,1.8,0.75,"(0.0, 0.0)","(0, -5)",404,404,2488.5753,male,1,2016_Jun_08_1512,2,
188,0,188,0,0.85,1.0,NU,H,0,2,1.3,0.75,"(0.0, 0.0)","(5, 0)",404,404,2496.2223,male,1,2016_Jun_08_1512,2,
189,0,189,0,0.35,0.4,U,N,0,2,1.4,0.75,"(0.0, 0.0)","(5, 0)",404,404,2504.0129,male,1,2016_Jun_08_1512,2,
190,0,190,0,0.4,0.5,U,M,E,1,1.4,0.75,"(0.0, 0.0)","(5, 0)",404,404,2511.7424,male,1,2016_Jun_08_1512,2,
191,0,191,0,0.85,1.0,NU,H,0,6,1.4,0.75,"(0.0, 0.0)","(-5, 0)",404,404,2519.475,male,1,2016_Jun_08_1512,2,
192,0,192,0,0.35,0.4,U,N,0,0,1.2,0.75,"(0.0, 0.0)","(0, 5)",404,404,2527.0104,male,1,2016_Jun_08_1512,2,
193,0,193,0,0.8,0.9,NU,M,N,0,1.1,0.75,"(0.0, 0.0)","(-4.33, 2.5)",404,404,2534.4413,male,1,2016_Jun_08_1512,2,
194,0,194,0,0.45,0.6,U,H,0,4,1.6,0.75,"(0.0, 0.0)","(0, -5)",404,404,2542.369,male,1,2016_Jun_08_1512,2,
195,0,195,0,0.75,0.8,NU,N,0,2,1.3,0.75,"(0.0, 0.0)","(5, 0)",404,404,2550.018,male,1,2016_Jun_08_1512,2,
196,0,196,0,0.45,0.6,U,H,0,0,1.4,0.75,"(0.0, 0.0)","(0, 5)",404,404,2557.7469,male,1,2016_Jun_08_1512,2,
197,0,197,0,0.35,0.4,U,N,0,7,1.7,0.75,"(0.0, 0.0)","(-3.54, 3.54)",404,404,2565.7897,male,1,2016_Jun_08_1512,2,
198,0,198,0,0.8,0.9,NU,M,E,2,1.8,0.75,"(0.0, 0.0)","(2.5, -4.33)",404,404,2573.9222,male,1,2016_Jun_08_1512,2,
199,0,199,0,0.75,0.8,NU,N,0,4,1.0,0.75,"(0.0, 0.0)","(0, -5)",404,404,2581.2654,male,1,2016_Jun_08_1512,2,
200,0,200,0,0.35,0.4,U,N,0,6,1.6,0.75,"(0.0, 0.0)","(-5, 0)",404,404,2589.1924,male,1,2016_Jun_08_1512,2,
201,0,201,0,0.35,0.4,U,N,0,6,1.2,0.75,"(0.0, 0.0)","(-5, 0)",404,404,2596.7266,male,1,2016_Jun_08_1512,2,
202,0,202,0,0.8,0.9,NU,M,W,0,1.5,0.75,"(0.0, 0.0)","(-2.5, -4.33)",404,404,2604.5723,male,1,2016_Jun_08_1512,2,
203,0,203,0,0.8,0.9,NU,M,W,2,1.6,0.75,"(0.0, 0.0)","(-2.5, 4.33)",404,404,2612.505,male,1,2016_Jun_08_1512,2,
204,0,204,0,0.45,0.6,U,H,0,6,1.1,0.75,"(0.0, 0.0)","(-5, 0)",404,404,2619.9703,male,1,2016_Jun_08_1512,2,
205,0,205,0,0.75,0.8,NU,N,0,3,1.2,0.75,"(0.0, 0.0)","(3.54, -3.54)",404,404,2627.5224,male,1,2016_Jun_08_1512,2,
206,0,206,0,0.35,0.4,U,N,0,5,1.7,0.75,"(0.0, 0.0)","(-3.54, -3.54)",404,404,2635.5577,male,1,2016_Jun_08_1512,2,
207,0,207,0,0.35,0.4,U,N,0,2,1.2,0.75,"(0.0, 0.0)","(5, 0)",404,404,2643.0879,male,1,2016_Jun_08_1512,2,
208,0,208,0,0.85,1.0,NU,H,0,2,1.3,0.75,"(0.0, 0.0)","(5, 0)",404,404,2650.7389,male,1,2016_Jun_08_1512,2,
209,0,209,0,0.85,1.0,NU,H,0,4,1.1,0.75,"(0.0, 0.0)","(0, -5)",404,404,2658.2022,male,1,2016_Jun_08_1512,2,
210,0,210,0,0.4,0.5,U,M,N,2,1.9,0.75,"(0.0, 0.0)","(4.33, 2.5)",404,404,2666.4324,male,1,2016_Jun_08_1512,2,
211,0,211,0,0.4,0.5,U,M,E,2,1.6,0.75,"(0.0, 0.0)","(2.5, -4.33)",404,404,2674.3922,male,1,2016_Jun_08_1512,2,
212,0,212,0,0.8,0.9,NU,M,W,0,1.2,0.75,"(0.0, 0.0)","(-2.5, -4.33)",404,404,2681.9359,male,1,2016_Jun_08_1512,2,
213,0,213,0,0.35,0.4,U,N,0,5,1.2,0.75,"(0.0, 0.0)","(-3.54, -3.54)",404,404,2689.4839,male,1,2016_Jun_08_1512,2,
214,0,214,0,0.45,0.6,U,H,0,1,2.0,0.75,"(0.0, 0.0)","(3.54, 3.54)",404,404,2697.8259,male,1,2016_Jun_08_1512,2,
215,0,215,0,0.85,1.0,NU,H,0,7,1.0,0.75,"(0.0, 0.0)","(-3.54, 3.54)",404,404,2705.1605,male,1,2016_Jun_08_1512,2,
216,0,216,0,0.8,0.9,NU,M,E,2,2.0,0.75,"(0.0, 0.0)","(2.5, -4.33)",404,404,2720.222,male,1,2016_Jun_08_1512,2,
217,0,217,0,0.35,0.4,U,N,0,4,1.3,0.75,"(0.0, 0.0)","(0, -5)",404,404,2727.8822,male,1,2016_Jun_08_1512,2,
218,0,218,0,0.85,1.0,NU,H,0,3,1.1,0.75,"(0.0, 0.0)","(3.54, -3.54)",404,404,2735.3396,male,1,2016_Jun_08_1512,2,
219,0,219,0,0.45,0.6,U,H,0,0,1.1,0.75,"(0.0, 0.0)","(0, 5)",404,404,2742.7655,male,1,2016_Jun_08_1512,2,
220,0,220,0,0.4,0.5,U,M,S,2,1.0,0.75,"(0.0, 0.0)","(4.33, -2.5)",404,404,2750.0848,male,1,2016_Jun_08_1512,2,
221,0,221,0,0.75,0.8,NU,N,0,7,1.1,0.75,"(0.0, 0.0)","(-3.54, 3.54)",404,404,2757.5265,male,1,2016_Jun_08_1512,2,
222,0,222,0,0.35,0.4,U,N,0,1,2.0,0.75,"(0.0, 0.0)","(3.54, 3.54)",404,404,2765.8552,male,1,2016_Jun_08_1512,2,
223,0,223,0,0.8,0.9,NU,M,S,2,1.5,0.75,"(0.0, 0.0)","(4.33, -2.5)",404,404,2773.6886,male,1,2016_Jun_08_1512,2,
224,0,224,0,0.4,0.5,U,M,E,1,1.6,0.75,"(0.0, 0.0)","(5, 0)",404,404,2781.6336,male,1,2016_Jun_08_1512,2,
225,0,225,0,0.4,0.5,U,M,S,0,1.5,0.75,"(0.0, 0.0)","(-4.33, -2.5)",404,404,2789.4621,male,1,2016_Jun_08_1512,2,
226,0,226,0,0.8,0.9,NU,M,N,1,1.8,0.75,"(0.0, 0.0)","(0, 5)",404,404,2797.5983,male,1,2016_Jun_08_1512,2,
227,0,227,0,0.8,0.9,NU,M,S,1,1.9,0.75,"(0.0, 0.0)","(0, -5)",404,404,2805.8182,male,1,2016_Jun_08_1512,2,
228,0,228,0,0.35,0.4,U,N,0,5,1.7,0.75,"(0.0, 0.0)","(-3.54, -3.54)",404,404,2813.8515,male,1,2016_Jun_08_1512,2,
229,0,229,0,0.85,1.0,NU,H,0,7,1.4,0.75,"(0.0, 0.0)","(-3.54, 3.54)",404,404,2821.5899,male,1,2016_Jun_08_1512,2,
230,0,230,0,0.4,0.5,U,M,N,2,1.1,0.75,"(0.0, 0.0)","(4.33, 2.5)",404,404,2829.033,male,1,2016_Jun_08_1512,2,
231,0,231,0,0.75,0.8,NU,N,0,6,1.8,0.75,"(0.0, 0.0)","(-5, 0)",404,404,2837.1607,male,1,2016_Jun_08_1512,2,
232,0,232,0,0.85,1.0,NU,H,0,3,1.8,0.75,"(0.0, 0.0)","(3.54, -3.54)",404,404,2845.2991,male,1,2016_Jun_08_1512,2,
233,0,233,0,0.45,0.6,U,H,0,6,1.6,0.75,"(0.0, 0.0)","(-5, 0)",404,404,2853.2233,male,1,2016_Jun_08_1512,2,
234,0,234,0,0.45,0.6,U,H,0,2,1.3,0.75,"(0.0, 0.0)","(5, 0)",404,404,2860.8663,male,1,2016_Jun_08_1512,2,
235,0,235,0,0.75,0.8,NU,N,0,0,1.8,0.75,"(0.0, 0.0)","(0, 5)",404,404,2869.0109,male,1,2016_Jun_08_1512,2,
236,0,236,0,0.35,0.4,U,N,0,1,1.9,0.75,"(0.0, 0.0)","(3.54, 3.54)",404,404,2877.2592,male,1,2016_Jun_08_1512,2,
237,0,237,0,0.85,1.0,NU,H,0,3,1.9,0.75,"(0.0, 0.0)","(3.54, -3.54)",404,404,2885.4902,male,1,2016_Jun_08_1512,2,
238,0,238,0,0.75,0.8,NU,N,0,3,1.6,0.75,"(0.0, 0.0)","(3.54, -3.54)",404,404,2893.4141,male,1,2016_Jun_08_1512,2,
239,0,239,0,0.45,0.6,U,H,0,1,1.3,0.75,"(0.0, 0.0)","(3.54, 3.54)",404,404,2901.054,male,1,2016_Jun_08_1512,2,
240,0,240,0,0.4,0.5,U,M,S,1,1.5,0.75,"(0.0, 0.0)","(0, -5)",404,404,2908.8909,male,1,2016_Jun_08_1512,2,
241,0,241,0,0.8,0.9,NU,M,W,1,1.4,0.75,"(0.0, 0.0)","(-5, 0)",404,404,2916.6339,male,1,2016_Jun_08_1512,2,
242,0,242,0,0.45,0.6,U,H,0,0,1.8,0.75,"(0.0, 0.0)","(0, 5)",404,404,2924.7802,male,1,2016_Jun_08_1512,2,
243,0,243,0,0.85,1.0,NU,H,0,4,1.5,0.75,"(0.0, 0.0)","(0, -5)",404,404,2932.6156,male,1,2016_Jun_08_1512,2,
244,0,244,0,0.35,0.4,U,N,0,6,1.4,0.75,"(0.0, 0.0)","(-5, 0)",404,404,2940.3571,male,1,2016_Jun_08_1512,2,
245,0,245,0,0.75,0.8,NU,N,0,4,1.3,0.75,"(0.0, 0.0)","(0, -5)",404,404,2948.0028,male,1,2016_Jun_08_1512,2,
246,0,246,0,0.75,0.8,NU,N,0,7,1.4,0.75,"(0.0, 0.0)","(-3.54, 3.54)",404,404,2955.7624,male,1,2016_Jun_08_1512,2,
247,0,247,0,0.4,0.5,U,M,N,0,1.2,0.75,"(0.0, 0.0)","(-4.33, 2.5)",404,404,2963.3008,male,1,2016_Jun_08_1512,2,
248,0,248,0,0.75,0.8,NU,N,0,3,1.8,0.75,"(0.0, 0.0)","(3.54, -3.54)",404,404,2971.4388,male,1,2016_Jun_08_1512,2,
249,0,249,0,0.85,1.0,NU,H,0,1,1.0,0.75,"(0.0, 0.0)","(3.54, 3.54)",404,404,2978.7762,male,1,2016_Jun_08_1512,2,
250,0,250,0,0.4,0.5,U,M,W,0,1.5,0.75,"(0.0, 0.0)","(-2.5, -4.33)",404,404,2986.6092,male,1,2016_Jun_08_1512,2,
251,0,251,0,0.4,0.5,U,M,N,2,2.0,0.75,"(0.0, 0.0)","(4.33, 2.5)",404,404,2994.9645,male,1,2016_Jun_08_1512,2,
252,0,252,0,0.8,0.9,NU,M,E,0,1.7,0.75,"(0.0, 0.0)","(2.5, 4.33)",404,404,3003.004,male,1,2016_Jun_08_1512,2,
253,0,253,0,0.75,0.8,NU,N,0,2,2.0,0.75,"(0.0, 0.0)","(5, 0)",404,404,3011.3559,male,1,2016_Jun_08_1512,2,
254,0,254,0,0.35,0.4,U,N,0,2,2.0,0.75,"(0.0, 0.0)","(5, 0)",404,404,3019.6848,male,1,2016_Jun_08_1512,2,
255,0,255,0,0.85,1.0,NU,H,0,7,1.4,0.75,"(0.0, 0.0)","(-3.54, 3.54)",404,404,3027.3962,male,1,2016_Jun_08_1512,2,
256,0,256,0,0.4,0.5,U,M,E,1,1.2,0.75,"(0.0, 0.0)","(5, 0)",404,404,3034.9257,male,1,2016_Jun_08_1512,2,
257,0,257,0,0.85,1.0,NU,H,0,4,1.2,0.75,"(0.0, 0.0)","(0, -5)",404,404,3042.4771,male,1,2016_Jun_08_1512,2,
258,0,258,0,0.4,0.5,U,M,E,2,1.0,0.75,"(0.0, 0.0)","(2.5, -4.33)",404,404,3049.8296,male,1,2016_Jun_08_1512,2,
259,0,259,0,0.85,1.0,NU,H,0,6,1.7,0.75,"(0.0, 0.0)","(-5, 0)",404,404,3057.8758,male,1,2016_Jun_08_1512,2,
260,0,260,0,0.35,0.4,U,N,0,5,1.9,0.75,"(0.0, 0.0)","(-3.54, -3.54)",404,404,3066.0986,male,1,2016_Jun_08_1512,2,
261,0,261,0,0.85,1.0,NU,H,0,2,1.4,0.75,"(0.0, 0.0)","(5, 0)",404,404,3073.825,male,1,2016_Jun_08_1512,2,
262,0,262,0,0.4,0.5,U,M,W,2,1.2,0.75,"(0.0, 0.0)","(-2.5, 4.33)",404,404,3081.3615,male,1,2016_Jun_08_1512,2,
263,0,263,0,0.75,0.8,NU,N,0,3,1.0,0.75,"(0.0, 0.0)","(3.54, -3.54)",404,404,3088.6788,male,1,2016_Jun_08_1512,2,
264,0,264,0,0.45,0.6,U,H,0,7,1.0,0.75,"(0.0, 0.0)","(-3.54, 3.54)",404,404,3096.0276,male,1,2016_Jun_08_1512,2,
265,0,265,0,0.8,0.9,NU,M,W,0,1.9,0.75,"(0.0, 0.0)","(-2.5, -4.33)",404,404,3104.263,male,1,2016_Jun_08_1512,2,
266,0,266,0,0.35,0.4,U,N,0,0,1.2,0.75,"(0.0, 0.0)","(0, 5)",404,404,3111.7856,male,1,2016_Jun_08_1512,2,
267,0,267,0,0.85,1.0,NU,H,0,5,1.6,0.75,"(0.0, 0.0)","(-3.54, -3.54)",404,404,3119.7444,male,1,2016_Jun_08_1512,2,
268,0,268,0,0.4,0.5,U,M,E,0,1.3,0.75,"(0.0, 0.0)","(2.5, 4.33)",404,404,3127.3959,male,1,2016_Jun_08_1512,2,
269,0,269,0,0.45,0.6,U,H,0,2,1.4,0.75,"(0.0, 0.0)","(5, 0)",404,404,3135.1424,male,1,2016_Jun_08_1512,2,
270,0,270,0,0.75,0.8,NU,N,0,1,1.4,0.75,"(0.0, 0.0)","(3.54, 3.54)",404,404,3142.8929,male,1,2016_Jun_08_1512,2,
271,0,271,0,0.75,0.8,NU,N,0,7,1.6,0.75,"(0.0, 0.0)","(-3.54, 3.54)",404,404,3150.8308,male,1,2016_Jun_08_1512,2,
272,0,272,0,0.35,0.4,U,N,0,2,1.5,0.75,"(0.0, 0.0)","(5, 0)",404,404,3158.6679,male,1,2016_Jun_08_1512,2,
273,0,273,0,0.8,0.9,NU,M,W,2,1.2,0.75,"(0.0, 0.0)","(-2.5, 4.33)",404,404,3166.2111,male,1,2016_Jun_08_1512,2,
274,0,274,0,0.75,0.8,NU,N,0,5,1.7,0.75,"(0.0, 0.0)","(-3.54, -3.54)",404,404,3174.2437,male,1,2016_Jun_08_1512,2,
275,0,275,0,0.45,0.6,U,H,0,5,1.3,0.75,"(0.0, 0.0)","(-3.54, -3.54)",404,404,3181.8821,male,1,2016_Jun_08_1512,2,
276,0,276,0,0.75,0.8,NU,N,0,0,1.7,0.75,"(0.0, 0.0)","(0, 5)",404,404,3189.9441,male,1,2016_Jun_08_1512,2,
277,0,277,0,0.4,0.5,U,M,S,0,1.4,0.75,"(0.0, 0.0)","(-4.33, -2.5)",404,404,3197.6866,male,1,2016_Jun_08_1512,2,
278,0,278,0,0.85,1.0,NU,H,0,0,1.1,0.75,"(0.0, 0.0)","(0, 5)",404,404,3205.1222,male,1,2016_Jun_08_1512,2,
279,0,279,0,0.45,0.6,U,H,0,1,1.5,0.75,"(0.0, 0.0)","(3.54, 3.54)",404,404,3212.9636,male,1,2016_Jun_08_1512,2,
280,0,280,0,0.85,1.0,NU,H,0,6,1.6,0.75,"(0.0, 0.0)","(-5, 0)",404,404,3220.8927,male,1,2016_Jun_08_1512,2,
281,0,281,0,0.8,0.9,NU,M,N,1,1.4,0.75,"(0.0, 0.0)","(0, 5)",404,404,3228.6135,male,1,2016_Jun_08_1512,2,
282,0,282,0,0.45,0.6,U,H,0,4,1.2,0.75,"(0.0, 0.0)","(0, -5)",404,404,3236.151,male,1,2016_Jun_08_1512,2,
283,0,283,0,0.4,0.5,U,M,N,0,1.5,0.75,"(0.0, 0.0)","(-4.33, 2.5)",404,404,3243.9885,male,1,2016_Jun_08_1512,2,
284,0,284,0,0.75,0.8,NU,N,0,6,1.8,0.75,"(0.0, 0.0)","(-5, 0)",404,404,3252.1226,male,1,2016_Jun_08_1512,2,
285,0,285,0,0.8,0.9,NU,M,W,1,1.9,0.75,"(0.0, 0.0)","(-5, 0)",404,404,3260.3351,male,1,2016_Jun_08_1512,2,
286,0,286,0,0.35,0.4,U,N,0,4,1.3,0.75,"(0.0, 0.0)","(0, -5)",404,404,3267.9666,male,1,2016_Jun_08_1512,2,
287,0,287,0,0.45,0.6,U,H,0,5,1.9,0.75,"(0.0, 0.0)","(-3.54, -3.54)",404,404,3276.1958,male,1,2016_Jun_08_1512,2,
